Folder: SAStutorials/Liquid_crystals/data

Note: Liquid_crystals/data/sampleA.txt
q I
0.01258 13.8766267
0.014 11.88131407
0.01542 10.87630871
0.01684 9.318532186
0.01826 8.526105716
0.01967 7.302644314
0.02109 6.236972324
0.02251 5.758271828
0.02393 5.133914595
0.02535 4.8602229
0.02677 4.534624784
0.02818 4.33331997
0.0296 4.141733848
0.03102 3.930729821
0.03244 3.97785631
0.03386 3.819728523
0.03527 3.747060203
0.03669 3.620779667
0.03811 3.442881885
0.03953 3.513422889
0.04095 3.388824585
0.04237 3.336143958
0.04378 3.308218415
0.0452 3.385152992
0.04662 3.371608372
0.04804 3.286939675
0.04946 3.293949738
0.05087 3.24559766
0.05229 3.269329354
0.05371 3.297475317
0.05513 3.314098729
0.05655 3.251769775
0.05797 3.313687168
0.05938 3.368792249
0.0608 3.773077215
0.06222 4.590343438
0.06364 5.514407533
0.06506 4.994993415
0.06647 3.975245448
0.06789 3.588781268
0.06931 3.342488466
0.07073 3.258644011
0.07215 3.336252863
0.07356 3.161134709
0.07498 3.216424326
0.0764 3.142803862
0.07782 3.177001907
0.07924 3.179084135
0.08066 3.163724563
0.08207 3.282735745
0.08349 3.230704718
0.08491 3.333051042
0.08633 3.327221377
0.08775 3.523445683
0.08916 3.745308583
0.09058 3.941093658
0.092 3.722928706
0.09342 3.537132826
0.09484 3.283041656
0.09626 3.230671216
0.09767 3.059763133
0.09909 3.147070558
0.10051 3.156847316
0.10193 3.067905296
0.10335 3.113065117
0.10476 3.163117959
0.10618 3.199042384
0.1076 3.332796447
0.10902 3.593261002
0.11044 3.81712854
0.11185 4.195104708
0.11327 3.721898774
0.11469 3.248314872
0.11611 3.114205107
0.11753 2.908881677
0.11895 2.942371486
0.12036 2.917092267
0.12178 2.798556701
0.1232 2.801403688
0.12462 2.728884202
0.12604 2.8556482
0.12745 2.877673812
0.12887 2.773189425
0.13029 2.76942464
0.13171 2.736767358
0.13313 2.653221042
0.13455 2.736313215
0.13596 2.662754858
0.13738 2.771049136
0.1388 2.699923736
0.14022 2.736352298
0.14164 2.576210229
0.14305 2.730294711
0.14447 2.737617848
0.14589 2.637387176
0.14731 2.739126396
0.14873 2.672738907
0.15015 2.659162592
0.15156 2.674001906
0.15298 2.634276836
0.1544 2.690133553
0.15582 2.69965571
0.15724 2.687443304
0.15865 2.735058173
0.16007 2.736197275
0.16149 2.657738972
0.16291 2.72337434
0.16433 2.744110331
0.16574 2.669480001
0.16716 2.696113441
0.16858 2.652254325
0.17 2.75962511
0.17142 2.653852102
0.17284 2.691908065
0.17425 2.71823051
0.17567 2.618625765
0.17709 2.574367664
0.17851 2.593471091
0.17993 2.543566478
0.18134 2.580984818
0.18276 2.62739067
0.18418 2.558227828
0.1856 2.615463687
0.18702 2.570796885
0.18844 2.469446521
0.18985 2.540160513
0.19127 2.548407566
0.19269 2.621514414
0.19411 2.577997179
0.19553 2.49646715
0.19694 2.537956928
0.19836 2.54799474
0.19978 2.463364144
0.2012 2.423329179
0.20262 2.414654021
0.20403 2.460651214
0.20545 2.514941692
0.20687 2.353499019
0.20829 2.454722627
0.20971 2.482510228
0.21113 2.585673088
0.21254 2.477350224
0.21396 2.402741373
0.21538 2.445766039
0.216

Note: Liquid_crystals/data/sampleB.txt
q  I
0.01258  45.95123272
0.014  38.05825245
0.01542  31.11413646
0.01684  24.94773192
0.01826  19.96205671
0.01967  16.23963756
0.02109  13.30461389
0.02251  11.47426977
0.02393  9.761546004
0.02535  8.671069323
0.02677  7.646380334
0.02818  6.893299445
0.0296  6.255314252
0.03102  5.740334778
0.03244  5.290286309
0.03386  4.887311574
0.03527  4.60924487
0.03669  4.355015809
0.03811  4.127394815
0.03953  3.992564956
0.04095  3.800803879
0.04237  3.66388804
0.04378  3.502862765
0.0452  3.420479439
0.04662  3.345639613
0.04804  3.286578721
0.04946  3.207488543
0.05087  3.147876214
0.05229  3.05630804
0.05371  3.03479266
0.05513  3.005586911
0.05655  2.93103069
0.05797  2.917995466
0.05938  2.922374359
0.0608  2.899315517
0.06222  2.806882126
0.06364  2.84636254
0.06506  2.820102138
0.06647  2.76639049
0.06789  2.720023372
0.06931  2.744053794
0.07073  2.734194085
0.07215  2.738485756
0.07356  2.753687251
0.07498  2.762581168
0.0764  2.791849761
0.07782  2.783490514
0.07924  2.681499918
0.08066  2.709824732
0.08207  2.731690553
0.08349  2.707682184
0.08491  2.698365074
0.08633  2.652331851
0.08775  2.630989253
0.08916  2.688780986
0.09058  2.690564582
0.092  2.667620251
0.09342  2.659318396
0.09484  2.662861315
0.09626  2.67235778
0.09767  2.682198197
0.09909  2.6499431
0.10051  2.673725958
0.10193  2.659897239
0.10335  2.669373988
0.10476  2.635794606
0.10618  2.644830085
0.1076  2.653272932
0.10902  2.621149581
0.11044  2.647514305
0.11185  2.656036499
0.11327  2.658723115
0.11469  2.652886179
0.11611  2.626628615
0.11753  2.662683648
0.11895  2.648005145
0.12036  2.662462069
0.12178  2.677188221
0.1232  2.701414647
0.12462  2.812985235
0.12604  2.919562552
0.12745  2.949991007
0.12887  2.861466983
0.13029  2.777933084
0.13171  2.786386327
0.13313  2.77363031
0.13455  2.798074431
0.13596  2.812295744
0.13738  2.847477819
0.1388  2.863618911
0.14022  2.88399237
0.14164  2.937468311
0.14305  2.970167038
0.14447  3.064024514
0.14589  3.218915398
0.14731  3.499776608
0.14873  3.762793569
0.15015  3.497328421
0.15156  3.307340853
0.15298  3.249582157
0.1544  3.357422674
0.15582  3.578410597
0.15724  3.858709938
0.15865  4.051182481
0.16007  3.842606848
0.16149  3.408299842
0.16291  3.182964226
0.16433  3.062077173
0.16574  2.925080954
0.16716  2.951300746
0.16858  2.906016355
0.17  2.870230761
0.17142  2.796998763
0.17284  2.805591418
0.17425  2.795232452
0.17567  2.772337219
0.17709  2.733624876
0.17851  2.747697903
0.17993  2.7397056
0.18134  2.702983471
0.18276  2.714609911
0.18418  2.694924433
0.1856  2.606473059
0.18702  2.656073773
0.18844  2.578387338
0.18985  2.631250312
0.19127  2.658382379
0.19269  2.61500148
0.19411  2.606457326
0.19553  2.612885705
0.19694  2.610296297
0.19836  2.582369328
0.19978  2.594853848
0.2012  2.602993691
0.20262  2.622550629
0.20403  2.622147635
0.20545  2.592019787
0.20687  2.5

Note: README.md
# SASTutorials
Code for website containing Tutorials on Small-Angle Scattering:

https://andreashlarsen.github.io/sastutorials-beta/

# Contribute
- Please edit/improve/extend tuturials.    
- You can also add a new tutorial in a few simple steps:    
1) add an tutorial in index.html (e.g. use the tutotrial Spheres snippet as template).     
2) download an existing tutorial folder (e.g. Spheres/Spheres.html), and use as template for the new tutorial (NewTutorial/NewTutorial.html).        
3) add an image (preferably square format) that will be the tuturial logo on the front page, and is references in index.html. 
4) test if everything is looking right by opening NewTutorial.html in your browser.
5) upload the new tutorial folder. The folder should contain everything related to that tutorial (extra html pages, images, files, etc).

File: SampleX.txt
 q(Å⁻¹) Intensity(abs.units*thickness) sigma(abs.units*thickness)
0.019717 0.00407816 0.000322891
0.021206 0.00307052 0.000281922
0.022694 0.00307581 0.000266028
0.024182 0.0034248 0.000283888
0.025670 0.00248452 0.000235208
0.027158 0.00227472 0.00023006
0.028646 0.00308184 0.000256504
0.030134 0.00269731 0.000236343
0.031622 0.00297895 0.000241244
0.033110 0.00261258 0.000222793
0.034598 0.00237929 0.000211646
0.036087 0.00250706 0.000216274
0.037575 0.00260061 0.000216409
0.039063 0.00228929 0.000199602
0.040551 0.00214588 0.000190082
0.042039 0.00271145 0.000212806
0.043527 0.00292004 0.000217363
0.045015 0.00252187 0.000199675
0.046503 0.00258006 0.0002012
0.047991 0.00273816 0.000202719
0.049480 0.00238237 0.000185756
0.050968 0.00245361 0.000185303
0.052456 0.00252581 0.00018801
0.053944 0.00270581 0.000196599
0.055432 0.00254881 0.000188232
0.056920 0.00245528 0.000179409
0.058408 0.002637758 0.000182524
0.059896 0.0031819 0.000199862
0.061384 0.00282645 0.00019129
0.062873 0.00295109 0.000191899
0.064361 0.00309299 0.000193567
0.065849 0.00277039 0.000180575
0.067337 0.00286013 0.000181934
0.068825 0.00321236 0.000190176
0.070313 0.0032957 0.000193154
0.071801 0.00303202 0.000184764
0.073289 0.00303975 0.000181579
0.074777 0.00307876 0.000183707
0.076266 0.00322622 0.000181456
0.077754 0.00362732 0.000191935
0.079242 0.00377327 0.000196728
0.080730 0.00348536 0.000189545
0.082218 0.0036566 0.000190853
0.083706 0.00371409 0.000190078
0.085194 0.00404839 0.000194826
0.086682 0.00437588 0.000201645
0.088170 0.00402823 0.000197038
0.089658 0.00430222 0.000201304
0.091147 0.00432503 0.000196975
0.092635 0.00465856 0.000203552
0.094123 0.00462744 0.000199893
0.095611 0.00482161 0.000205333
0.097099 0.0050733 0.000211073
0.098587 0.0053268 0.000215374
0.100075 0.00567762 0.000218268
0.101563 0.0056228 0.00021378
0.103051 0.00599367 0.000221155
0.104540 0.00599896 0.000218268
0.106028 0.00633252 0.000226881
0.107516 0.0069512 0.000233181
0.109004 0.00735638 0.000239884
0.110492 0.00721015 0.00023229
0.111980 0.00740702 0.000236298
0.113468 0.00815012 0.000245211
0.114956 0.00865357 0.000256351
0.116444 0.00932134 0.000261319
0.117933 0.00943243 0.000263809
0.119421 0.0100606 0.000265913
0.120909 0.0101911 0.000267637
0.122397 0.0114433 0.000283608
0.123885 0.0116866 0.000289071
0.125373 0.0125829 0.000295408
0.126861 0.0134527 0.000301939
0.128349 0.0136465 0.000316227
0.129837 0.0156563 0.000350034
0.131325 0.0168883 0.000373554
0.132814 0.0181665 0.000392154
0.134302 0.019558 0.000409418
0.135790 0.021429 0.000426802
0.137278 0.0236499 0.000452103
0.138766 0.0252021 0.00046478
0.140254 0.0281252 0.000503649
0.141742 0.030351 0.000520949
0.143230 0.0347476 0.000566021
0.144718 0.053931 0.00069899
0.146207 0.22356 0.00141394
0.147695 1.30156 0.00341173
0.149183 1.02067 0.00310261
0.150671 0.283308 0.00165354
0.152159 0.0623679 0.000768726
0.153647 0.0382684 0.000598088
0.155135 0.0316308 0.000537741
0.156623 0.0291419 0.000525505
0.158111 0.0270206 0.00050953
0.159600 0.0260445 0.000501415
0.161088 0.025301 0.000490805
0.162576 0.0234895 0.000477317
0.164064 0.0220611 0.000453156
0.165552 0.0212702 0.00045423
0.167040 0.0234066 0.000476506
0.168528 0.0419821 0.000647316
0.170016 0.0738569 0.000852472
0.171504 0.05607854 0.000746382
0.172992 0.0413588 0.000621947
0.174481 0.0211606 0.000449977
0.175969 0.0162369 0.000395085
0.177457 0.0145675 0.00038603
0.178945 0.0143521 0.000380374
0.180433 0.0135897 0.000369247
0.181921 0.01347042 0.000359892
0.183409 0.0117199 0.00034459
0.184897 0.011324 0.000336277
0.186385 0.01154 0.000339479
0.187874 0.010479 0.000324284
0.189362 0.0106989 0.000326105
0.190850 0.0103068 0.000325581
0.192338 0.0101516 0.000321541
0.193826 0.00936375 0.000305104
0.195314 0.00982952 0.000314115
0.196802 0.00946528 0.000312815
0.198290 0.00905035 0.000301424
0.199778 0.00854792 0.000297286
0.201267 0.00827554 0.000289651
0.202755 0.00839945 0.000293253
0.204243 0.00830493 0.000289476
0.205731 0.0084355 0.000294625
0.207219 0.00813097 0.000287141
0.208707 0.00708397 0.000270679
0.210195 0.00728579 0.000274515
0.211683 0.00715893 0.000269455
0.213171 0.0070978 0.000269628
0.214660 0.00700588 0.000269213
0.216148 0.00708761 0.00026945
0.217636 0.006997596 0.000269742
0.219124 0.0064715 0.000256228
0.220612 0.00656052 0.000261197
0.222100 0.00751244 0.000278126
0.223588 0.00930214 0.000314198
0.225076 0.0120152 0.000350889
0.226564 0.0118261 0.000348128
0.228052 0.00943634 0.00031175
0.229541 0.00678427 0.000267677
0.231029 0.0068469 0.000264914
0.232517 0.00649585 0.00025868
0.234005 0.0060493 0.000249638
0.235493 0.0061505 0.000259553
0.236981 0.00652549 0.000266656
0.238469 0.00601031 0.000260744
0.239957 0.00608297 0.000266708
0.241445 0.00838006 0.00031663
0.242934 0.0113311 0.000368196
0.244422 0.0126413 0.000400595
0.245910 0.00646949 0.000287466
0.247398 0.00628005 0.000279823
0.248886 0.00576289 0.000268063
0.250374 0.00566572 0.000260401
0.251862 0.00524563 0.000247738
0.253350 0.00550286 0.000251636
0.254838 0.00533872 0.000243855
0.256327 0.00542396 0.000238877
0.257815 0.00551823 0.000240952
0.259303 0.00542144 0.000240054
0.260791 0.00513058 0.000234734
0.262279 0.00526464 0.000233612
0.263767 0.00530571 0.000238724
0.265255 0.00529875 0.000238576
0.266743 0.00513629 0.000232513
0.268231 0.00694597 0.000269044
0.269719 0.00811539 0.000296818
0.271208 0.00967018 0.00031988
0.272696 0.00732208 0.0002805014
0.274184 0.00561507 0.00024439
0.275672 0.00488289 0.000227909
0.277160 0.00536492 0.000238295
0.278648 0.00544309 0.000241262
0.280136 0.00510477 0.000233653
0.281624 0.00746116 0.000283216
0.283112 0.00868783 0.000300255
0.284601 0.00718688 0.000277269
0.286089 0.00572736 0.000246896
0.287577 0.00495971 0.000228026
0.289065 0.00437707 0.000217527
0.290553 0.00465062 0.000222507
0.292041 0.00457016 0.000218913
0.293529 0.00496509 0.000228185
0.295017 0.00502389 0.000231291
0.296505 0.0059674 0.000252087
0.297994 0.00529294 0.000238644
0.299482 0.00439528 0.000216918
0.300970 0.00442787 0.000217174
0.302458 0.00401849 0.000206899
0.303946 0.00432594 0.000210943
0.305434 0.00422727 0.000213314
0.306922 0.00382622 0.000203477
0.308410 0.00418466 0.000209046
0.309898 0.00432517 0.000214693
0.311386 0.0036979 0.000198524
0.312875 0.00329444 0.000188353
0.314363 0.00286709 0.000174821
0.315851 0.00300578 0.000179007
0.317339 0.00284052 0.000174469
0.318827 0.0032104 0.000185966
0.320315 0.00300043 0.000177073
0.321803 0.00293687 0.000177426
0.323291 0.00292791 0.000177163
0.324779 0.00268422 0.000168775
0.326268 0.00284615 0.000175137
0.327756 0.002780675 0.000173119
0.329244 0.00329747 0.000187565
0.330732 0.00287466 0.000175584
0.332220 0.00297685 0.000177776
0.333708 0.002901 0.000177775
0.335196 0.00271745 0.0001720666
0.336684 0.0029074 0.000177525
0.338172 0.00250075 0.000163385
0.339661 0.00290517 0.000177015
0.341149 0.0029824 0.000178444
0.342637 0.00293584 0.000177507
0.344125 0.00285237 0.000205768
0.345613 0.00267453 0.000218744
0.347101 0.0029 0.000240453
0.348589 0.00239168 0.000230799
0.350077 0.00292352 0.00027322
0.351565 0.00330753 0.00031455
0.353053 0.00353889 0.000345737
0.354542 0.00293445 0.000343788
0.356030 0.00285121 0.000349113
0.357518 0.00378921 0.000457039
0.359006 0.00316782 0.000478379
0.360494 0.00336136 0.000553359
0.361982 0.00318092 0.00062616
0.363470 0.00169756 0.000568684
0.364958 0.00361186 0.00137566
0.365702 -9.54464e-06 0.000141437